#lambda/nm	DC	C1
208.295	468.2	465.8
208.67	438.4	431.4
209.045	395.6	389.6
209.419	405.6	397.2
209.794	568.4	566.6
210.169	546	554.6
210.544	673.4	659.8
210.919	564.8	577
211.295	565.8	566.4
211.67	571.6	576
212.045	562.6	571.8
212.421	575.2	577.2
212.796	599.2	607
213.172	563.8	560.2
213.547	562.8	569
213.923	576.2	560
214.299	565.4	563.8
214.675	581.6	574.2
215.051	572.6	576.6
215.427	574.4	578
215.803	582	592.4
216.179	569.4	574
216.555	552.8	563.2
216.932	582.8	583.6
217.308	571.6	570.4
217.684	573.8	563.6
218.061	580	578.6
218.438	572.6	577.6
218.814	560.6	565.4
219.191	577.4	577.8
219.568	561	567
219.945	574	567.8
220.322	582.8	574.6
220.699	571	580
221.076	584.4	582
221.453	575.8	579.4
221.83	570.4	563.2
222.208	570.6	559
222.585	564.4	571.4
222.962	574	567.6
223.34	575.6	576.4
223.717	567.8	571.4
224.095	566	567.4
224.473	563.8	568.4
224.851	561.2	570
225.229	558.8	564.6
225.607	582.6	583.6
225.985	561.4	566.2
226.363	566.6	573.4
226.741	570.6	564.6
227.119	576.6	559.6
227.497	585	589.4
227.876	555	556.2
228.254	585.4	579.8
228.633	569	575.6
229.011	571.6	568.8
229.39	574.2	578
229.769	569	577.6
230.148	574.4	580.2
230.527	586	591.6
230.905	571.8	577.4
231.284	569.4	575
231.664	563.6	561
232.043	587	579.6
232.422	570.6	579.6
232.801	566.4	571.6
233.181	575.6	586
233.56	569.2	572.6
233.94	574.2	576.2
234.319	570	562
234.699	568.2	566.8
235.079	614.4	604.4
235.458	608	602.8
235.838	587.4	584.2
236.218	561.6	561.2
236.598	563.4	562
236.978	564.2	559.8
237.358	557.2	558.6
237.738	569	560.8
238.119	576.6	579
238.499	564.4	562.4
238.88	576.8	573.2
239.26	579.8	581.4
239.641	562.8	565.6
240.021	565.6	567.6
240.402	567.8	571.2
240.783	571.4	567.6
241.163	561	564
241.544	583.2	573.4
241.925	569.4	570.2
242.306	573.6	585.4
242.687	575.8	571
243.069	572	574
243.45	569.4	575
243.831	572.4	564.2
244.212	581.6	563.8
244.594	604	606.8
244.975	577.6	578
245.357	575	567
245.739	561.4	566
246.12	576	559.6
246.502	583.2	582.2
246.884	564.8	572.4
247.266	566	566.2
247.648	577.8	578.4
248.03	598.2	587.6
248.412	576.6	570
248.794	574.4	574.8
249.176	565.2	564.4
249.559	579.4	568.6
249.941	561.6	557.4
250.323	569.6	555.8
250.706	567.8	547.6
251.089	569	562.6
251.471	579	564
251.854	574.4	560.2
252.237	571	566
252.62	577.2	571
253.002	574.6	564.8
253.385	573.2	568.4
253.769	583.2	577.8
254.152	576.2	561.2
254.535	575.4	578.8
254.918	569.6	560.2
255.301	564.8	565.2
255.685	565	562
256.068	563.8	552.8
256.452	595.4	586.8
256.835	583	584.4
257.219	572	579.4
257.603	583.4	582.2
257.986	565	563.2
258.37	575.4	573.4
258.754	562.4	562
259.138	574.2	574.4
259.522	584.8	578
259.906	565.2	564.6
260.29	571.2	580.8
260.675	569.2	566
261.059	582.6	564.2
261.443	559.4	561.6
261.828	571.8	580.8
262.212	574.4	575.8
262.597	560	564.6
262.981	568.2	567
263.366	577.8	569.4
263.751	573.8	576.6
264.136	560.8	572.2
264.521	571.4	563.8
264.906	559.6	569.2
265.291	574.2	591
265.676	568.8	566.2
266.061	577.8	570
266.446	581.8	590.6
266.831	565.4	567
267.217	591.6	585.8
267.602	568.2	571.8
267.987	570.8	570.6
268.373	555	570.4
268.759	566.8	579.8
269.144	576	577.4
269.53	571.4	568.2
269.916	565.8	570
270.302	565	568.8
270.688	573	577.2
271.074	571.2	568.8
271.46	575.8	581.4
271.846	592.4	592.2
272.232	566.6	570.2
272.618	563	566.2
273.004	562.6	566
273.391	580.6	576
273.777	579.6	580.4
274.164	571.8	580.2
274.55	579.6	578
274.937	578	573.6
275.324	560.6	570.6
275.71	576.2	582.2
276.097	577.6	583.4
276.484	561.2	564.4
276.871	568.4	581.2
277.258	572	576.6
277.645	564.8	561.4
278.032	566.2	569.2
278.419	565	561.6
278.807	568	573.8
279.194	562	561.2
279.581	561	568.6
279.969	557.8	579.8
280.356	570.4	563.6
280.744	573.8	578
281.131	596	588.2
281.519	581	578.2
281.907	557.6	570
282.295	560	571
282.682	579.6	577
283.07	561.8	575.4
283.458	576.8	576.6
283.846	577.4	588.2
284.235	586.2	580.6
284.623	582.2	581
285.011	564.8	569.4
285.399	578.2	581.2
285.788	567	573.6
286.176	557	560.4
286.565	584.4	587.6
286.953	573.8	562
287.342	573.6	569.4
287.731	561	565.4
288.119	562.8	557.4
288.508	563	567.8
288.897	574	575.4
289.286	563.8	563.4
289.675	574.6	566.6
290.064	572.8	585.2
290.453	568.2	562
290.821	568	570.8
291.21	587	584.6
291.599	565	567.2
291.989	565.8	565.6
292.378	581.6	576.8
292.768	590.6	590.8
293.157	577.4	574
293.547	580	572
293.936	562.8	569.8
294.326	566.2	564
294.716	580	573.6
295.106	570.8	565.8
295.496	578	569.6
295.886	579.8	582.8
296.276	572	577
296.666	565.8	565
297.056	570.4	567.6
297.446	559.4	554.8
297.836	587.8	581
298.227	569	564.4
298.617	574.2	568.8
299.008	582.8	591.6
299.398	570.2	572.6
299.789	569.2	568
300.179	568.2	570
300.57	591.8	594.4
300.961	564.6	562.2
301.352	575	565
301.742	587.2	568.6
302.133	575.2	571.4
302.524	569.6	568.2
302.915	576.8	574.6
303.307	565.2	566.2
303.698	584.2	580.8
304.089	582.6	579.8
304.48	571.2	571.8
304.872	573.2	573
305.263	569.6	565.4
305.655	570.2	568
306.046	577.6	575.2
306.438	581.4	568.8
306.829	573.2	556.8
307.221	587.4	584.6
307.613	579.4	577.2
308.005	578	573.6
308.397	584.6	579.6
308.789	590.4	586.6
309.181	590	597.2
309.573	588.6	592.2
309.965	587	585.6
310.357	567	564.8
310.749	579	585.4
311.142	567.2	565.8
311.534	570.2	570
311.926	585.6	580.8
312.319	579.2	570.6
312.711	566	566.6
313.104	584.2	584.4
313.497	574.2	563.4
313.889	609.2	601.4
314.282	591.8	577.6
314.675	596.4	587.6
315.068	574.6	567.4
315.461	572	576.6
315.854	599.8	596.8
316.247	586.6	585.2
316.64	568	577
317.033	582.2	565.8
317.405	576.4	577.6
317.798	568.6	577.2
318.192	578.8	578.8
318.585	565.2	566.8
318.979	582.4	578.6
319.372	563	571.8
319.766	565.4	574
320.16	579	577.4
320.553	595.4	594.2
320.947	585.8	596
321.341	566.8	568.2
321.735	573.2	570.6
322.129	560.6	563.6
322.523	581.8	599.6
322.917	560	563.2
323.311	581.4	588.6
323.705	573	574.4
324.099	574.4	570.2
324.494	590.8	588.6
324.888	579	585.4
325.282	568	565.2
325.677	579.2	582
326.071	578.6	584.8
326.466	580.8	577.6
326.861	568.4	570.4
327.255	577.4	582.4
327.65	590.6	580.2
328.045	591.8	586
328.44	571.8	579.2
328.835	573.6	577.8
329.23	562.8	570
329.625	596.6	588
330.02	567.8	573.4
330.415	595.8	589.4
330.81	570.8	581.6
331.206	569.2	573
331.601	567.4	569.2
331.996	579.6	579.4
332.37	592.8	593.2
332.766	561.4	557.8
333.161	596.6	601.4
333.557	569	571.2
333.953	566.8	578
334.348	920.4	862.6
334.744	577.8	578
335.14	568.2	561.4
335.536	568.8	568
335.932	583.2	589.2
336.328	578.4	580.8
336.724	579.8	573.2
337.12	570.4	580.2
337.516	569.4	585.2
337.913	575	570.4
338.309	581.6	580.2
338.705	571.4	574.8
339.102	583	591.4
339.498	570	567.4
339.895	584.4	576.8
340.291	564.4	569.2
340.688	586.2	570.4
341.085	556.6	564
341.481	565	562.6
341.878	584	576.4
342.275	593	596.6
342.672	573.4	567.6
343.069	560.2	560
343.466	557.4	555
343.842	580.4	580.6
344.239	571	555.4
344.636	577.6	568.2
345.033	566.8	569.6
345.431	557	558.6
345.828	569.4	569.4
346.225	556.8	559.8
346.623	577.8	573.8
347.02	570.8	564.8
347.418	577.8	569.2
347.816	584.4	577.4
348.213	566.8	555.6
348.611	572.4	562.2
349.009	560	556.2
349.407	588.8	578.6
349.805	563.4	547.4
350.203	553.4	551
350.601	582.6	581.4
350.999	562	560.8
351.397	611.2	603.4
351.795	568.6	563.2
352.193	575	579.4
352.57	573.8	570.6
352.969	578.8	577.6
353.367	567.8	557.4
353.766	562.2	557.6
354.164	568.2	569
354.563	574	566.8
354.961	575	565.2
355.36	575.8	565.8
355.759	569.4	568.8
356.158	560.2	552.4
356.557	564.2	564.2
356.956	565.8	564.4
357.355	556.4	551.8
357.754	573	573
358.153	575.8	566.6
358.552	590.6	590.6
358.951	560.4	574.8
359.35	568.6	586
359.75	565.2	562.2
360.149	564.6	558.2
360.527	557.4	558
360.926	552	558.8
361.326	572.2	565.8
361.726	565.4	564.8
362.125	562.8	564.8
362.525	577.8	580.2
362.925	564	569.2
363.325	566	572.6
363.724	568.6	565.6
364.124	556	566.4
364.524	559.4	561.2
364.924	560.2	556.4
365.324	574.2	580
365.725	552.6	551.6
366.125	566.4	567.2
366.525	562.6	565
366.904	554.4	563.2
367.304	543.6	551
367.705	576.2	580.4
368.105	576.8	579
368.506	559	565.8
368.906	568	562
369.307	561.4	563.4
369.708	568.6	562
370.108	549	548.6
370.509	569.6	570.6
370.91	555.6	556.8
371.311	556.4	560.4
371.712	564.6	561.8
372.113	559.2	555.2
372.514	546.6	558.4
372.894	557.8	565.2
373.295	553.4	562.4
373.696	574.4	569.4
374.097	569	577
374.499	589.8	593
374.9	561.8	576.4
375.301	551.8	561
375.703	569	570.2
376.105	553.8	560.6
376.506	557	569.8
376.908	564.8	572.8
377.309	566.4	566
377.711	559.2	565.4
378.113	561.2	557.6
378.493	556.4	563.6
378.895	565	561.4
379.297	569	570.4
379.699	549	547.2
380.102	567.8	569.4
380.504	565.2	563
380.906	555.4	561.8
381.308	587.6	594.6
381.71	563.8	563.8
382.113	566.4	573.8
382.515	550.2	562.2
382.918	559.8	566.2
383.299	559.4	554.8
383.701	564.8	566.4
384.104	557	567.6
384.507	541.8	545
384.909	558.6	566.4
385.312	546.2	551.8
385.715	563.4	559.8
386.118	565.8	565.4
386.521	553	559
386.924	568.8	576.4
387.327	559.6	558.2
387.709	551.8	557.6
388.112	550.8	545.8
388.515	562.8	555
388.918	561.2	561.4
389.322	567.4	573.8
389.725	557.8	566.2
390.129	571.8	586.6
390.532	571.4	576
390.936	557.6	554.6
391.339	553	554.6
391.743	561.2	569
392.125	552	565.8
392.529	582	568
392.933	569.6	577.2
393.337	574	565
393.74	566.2	567
394.144	558.8	571
394.548	555	565.2
394.953	561.4	564
395.357	568.6	575
395.761	552.4	565
396.144	561.2	561.8
396.548	554.8	564.6
396.952	563.2	569.8
397.357	563.2	565.8
397.761	563.4	560.8
398.166	559.6	563.8
398.57	555.8	554
398.975	562.2	554.8
399.379	554.4	569.2
399.763	616.2	600.6
400.168	563.4	567.4
400.572	556.2	570.4
400.977	552.2	563.8
401.382	584.2	574.6
401.787	577.4	576.4
402.192	576	577.2
402.597	574.8	573.8
403.002	552	550.6
403.386	569.4	580.4
403.791	570.8	573.2
404.197	556.6	550.4
404.602	564	564
405.007	550.2	555.2
405.413	562.8	561.2
405.818	561	562
406.224	551.2	555.8
406.608	560.6	566.2
407.014	551.2	559
407.42	586	577.4
407.825	563.4	556.8
408.231	574.4	561.4
408.637	566.6	557.6
409.043	580	572.6
409.449	559.4	556.2
409.834	560.6	563.2
410.24	563.8	571.6
410.646	567.8	569.8
411.052	574.4	572.8
411.458	563	567
411.865	569.6	577.6
412.271	576.6	572.8
412.677	569	565
413.062	576.6	569.8
413.469	557.4	566.4
413.875	586.4	586.2
414.282	575	572.6
414.689	569	572
415.095	571.6	566.2
415.502	566.4	563
415.888	572.4	567
416.294	547	553.2
416.701	596.2	595.8
417.108	563.2	564.6
417.515	581.4	567.2
417.923	571.2	560.8
418.33	576.4	585.8
418.715	572.4	573.2
419.123	557.6	567.8
419.53	560.8	566.4
419.937	559.4	567.8
420.345	569.8	578.6
420.752	566.4	560.6
421.16	575.2	577.6
421.546	570	561
421.953	575.6	566.2
422.361	557.6	559.2
422.769	557.6	560
423.177	560.6	555.4
423.585	587	587.6
423.992	585.8	589.4
424.379	577.4	573.8
424.787	577.4	571
425.195	580.4	589.4
425.603	568.8	569.6
426.011	577.2	582.8
426.419	572.8	576.8
426.806	570.2	565.2
427.214	565.8	570.2
427.623	577.8	580
428.031	579.2	587.2
428.44	564.8	574.2
428.848	581.2	589.6
429.235	575.8	588
429.644	577.4	573.8
430.053	564.8	580.2
430.461	585.8	600.6
430.87	589.8	616.4
431.279	586.4	604.2
431.666	567.2	591
432.075	569	604.6
432.484	576.8	616.6
432.893	567.8	611.8
433.302	582.2	640.8
433.711	600.2	660.4
434.099	571.8	639.2
434.508	570.4	640.2
434.918	559.4	641.2
435.327	579	658.8
435.737	568.2	669.8
436.125	570.6	668.2
436.534	567.4	674.8
436.944	572.2	694.6
437.353	568.6	698
437.763	589.2	716.8
438.173	563	705.8
438.561	581.8	727.2
438.971	556.4	709.8
439.381	572.8	722.8
439.791	561.2	737.6
440.201	548	723.8
440.589	566.8	758.4
440.999	581.2	769.6
441.409	575.8	767.8
441.819	555	753.6
442.23	578.8	784
442.619	572.4	789.6
443.029	566	786.2
443.439	573	793.2
443.85	573.8	809.4
444.26	582	810.4
444.649	576.6	811.2
445.06	574.4	806.2
445.471	568.6	795.8
445.881	572	804
446.292	585.2	823
446.682	589.4	832
447.092	560.2	809.2
447.503	614.6	864.6
447.914	578	835.6
448.325	574.4	836
448.715	579	833.8
449.126	560.6	832.6
449.537	576.4	830.8
449.948	579.8	843.2
450.338	572.2	841.6
450.75	583.8	843
451.161	580.8	843.4
451.572	579.2	857.2
451.984	574.6	861.6
452.374	555.6	833.8
452.786	571.8	840.4
453.197	582.8	857.6
453.609	574.6	858.6
453.999	565.4	852.8
454.411	557.8	849.6
454.823	580.6	872.6
455.235	574.2	858.4
455.647	566.8	852
456.037	575.6	867.6
456.449	548.8	848
456.862	570.2	855.2
457.274	571	867.8
457.665	558.6	858
458.077	566.4	868.6
458.489	592.2	897
458.902	563.8	858.2
459.293	565.4	870
459.705	569	856.4
460.118	562.4	858.2
460.53	569.6	865.8
460.921	568.4	875
461.334	573.8	868.4
461.747	564	863.8
462.16	585.2	878.6
462.551	576.4	875.8
462.964	562	881
463.377	548.8	855
463.79	557.2	868.8
464.182	570.8	874.2
464.595	557.4	849.4
465.008	565	859.8
465.421	568.2	870
465.813	559	875.6
466.226	560.8	872.8
466.64	559.8	855.8
467.053	598.4	907.6
467.445	573	876.4
467.859	579.4	888.6
468.272	559.2	880.2
468.686	573	895.2
469.078	566	866.2
469.492	545.6	866.8
469.906	559.8	875.8
470.298	566	875.8
470.712	553	869.8
471.126	603	905
471.54	545.4	852.2
471.933	550.2	852
472.347	555.6	864.6
472.761	553.8	865
473.175	544.4	856.6
473.568	558.2	866.4
473.982	544.8	855
474.397	548.6	850.8
474.79	559.2	858.8
475.204	564.4	848.4
475.619	557.2	861
476.033	555	854.4
476.426	553.6	837.4
476.841	552.6	837.2
477.256	585.8	861
477.649	553.2	840
478.064	551.6	829.8
478.479	556.4	835.6
478.872	562.2	835.4
479.287	543.4	822.4
479.702	552.6	835.2
480.118	564.2	836.4
480.511	561.2	835
480.927	563	851.2
481.342	549	830.6
481.736	562.2	836.4
482.151	548.8	824.2
482.566	572.2	841.8
482.96	560.4	833.6
483.376	562.4	835.8
483.792	550.4	829.2
484.186	558.2	832
484.602	558	813.4
485.017	550	831.4
485.412	555	819.2
485.827	557.6	835
486.243	562.8	818.2
486.638	580.2	838
487.054	564.8	815.4
487.47	571.4	820.6
487.865	552.6	805.6
488.281	552.4	814
488.697	553.4	809.8
489.092	555.2	811.2
489.508	551.4	800.2
489.925	561.2	801.8
490.32	552.2	796.4
490.736	564.2	811.8
491.153	554.2	803.8
491.548	566.2	794.4
491.964	574.4	807.2
492.381	544	782.4
492.776	560.6	795.4
493.193	558.4	796.8
493.61	557.6	792
494.006	564.4	789.8
494.422	564.8	787.8
494.84	556.4	768.8
495.235	563	788
495.652	559.4	773.4
496.069	555	772.2
496.465	545.2	766.8
496.883	557.8	766.2
497.3	586	800.2
497.696	551.6	766.6
498.113	565.6	770.6
498.509	541.4	757.4
498.927	545.6	755.6
499.344	551.8	744.6
499.741	548.6	757.2
500.158	561.6	764.8
500.576	562.4	760.2
500.973	568	755.6
501.39	548	749.8
501.787	550.8	738.2
502.205	555.6	750.8
502.623	548.6	739.8
503.02	550	730.8
503.438	557.8	734.4
503.856	559.6	734.2
504.253	559.2	737.8
504.671	562.8	741.8
505.068	554.8	733.8
505.486	552.2	728.4
505.905	575.6	743.8
506.302	566.6	728
506.72	560.8	739
507.118	553.8	731
507.536	558.2	715.8
507.955	548.6	724.4
508.352	560.2	721.4
508.771	560.2	726
509.169	557.2	724.4
509.587	554.4	714
510.006	563.2	713.8
510.404	550.6	708.4
510.823	554	715
511.221	559.2	715
511.64	550.8	708.2
512.038	568	730.4
512.457	560	707.4
512.877	559	706.4
513.275	552.4	695.2
513.694	558.8	692
514.092	553	708
514.512	563.4	704.2
514.91	577	701.2
515.33	556.6	698.2
515.749	561	695.6
516.148	562.2	701.2
516.568	563.8	699
516.966	550.2	694.2
517.386	558.4	684
517.785	554	684.6
518.205	557.6	681.6
518.603	551.6	676.2
519.024	542.4	677.2
519.444	550.8	677.8
519.843	562.8	693.4
520.263	564.6	691.2
520.662	563.6	681.6
521.082	556.8	675
521.481	563	671.8
521.902	560	674.8
522.301	558.2	675
522.722	559.6	687
523.121	558.4	670.8
523.542	557.2	671.4
523.963	554.2	667.4
524.362	556.6	672.4
524.783	557.2	659
525.183	552.4	672.4
525.604	563	669
526.003	549.2	654
526.425	544	666
526.824	563	661.2
527.246	563.2	673
527.646	564.8	665
528.067	553	660.4
528.467	554.6	655.8
528.888	561	658
529.289	553.6	650
529.71	553	657.4
530.11	550	646.4
530.532	548.8	642.4
530.932	551.2	641.6
531.354	549.4	639.2
531.755	591.6	684.2
532.176	566	654.6
532.577	556.4	650.2
532.999	551.8	656
533.4	556.4	641.6
533.822	568.4	642.6
534.223	568	655.4
534.645	551.6	639
535.046	553.8	629.8
535.468	561.4	644.8
535.869	566.6	647.8
536.292	549.4	631.8
536.693	583.6	666
537.115	559.6	636.4
537.516	555	643.4
537.939	554.6	625
538.34	572	640
538.742	570.8	637.4
539.165	562	635.2
539.566	561	615.8
539.989	558.8	615.8
540.391	558.2	617.2
540.814	562.2	614.2
541.216	568.4	622.6
541.639	557.6	614.8
542.041	569.6	624.8
542.464	552.4	619
542.866	557.4	601.4
543.268	546.6	619.6
543.691	560.8	620.8
544.093	553.8	627.4
544.517	578.2	634.8
544.919	553.6	606
545.343	579.2	640.8
545.745	552.8	620
546.147	570	611.4
546.571	545.6	614.8
546.974	547	611.2
547.398	553.6	610.4
547.8	569.4	627.6
548.224	546.8	600.8
548.627	550	600.4
549.03	559.8	621
549.454	550	603.2
549.857	547	608
550.281	550.8	605.4
550.684	549.4	602.4
551.087	558.4	627.2
551.512	561	616.6
551.915	559	616
552.34	549.4	601
552.743	553.6	610
553.146	557.4	607.4
553.571	565.2	616.4
553.975	566.6	623.2
554.399	558.4	599
554.803	602	651
555.207	556.8	598.6
555.632	561.4	599.2
556.036	561.2	597.8
556.461	552.8	596.2
556.865	556.6	600.4
557.268	554.4	592
557.694	553	594.4
558.098	561.2	611
558.502	562	614.8
558.927	549.6	602.6
559.332	563.2	590.6
559.736	555.2	596.2
560.162	557.6	600.6
560.566	547.8	594.4
560.992	557.2	605.4
561.396	556.4	598.4
561.801	550.2	591.6
562.227	555.2	587.8
562.631	552.4	586.2
563.036	551	595
563.462	556.2	604.8
563.867	555.6	594.8
564.272	541.6	577.2
564.698	554.4	591
565.103	543.6	576.6
565.508	571.2	606.8
565.935	563	597.2
566.34	551.2	590.2
566.745	562.4	603.8
567.172	547.8	590.8
567.577	569	612
567.982	561.2	595
568.409	554.8	594.6
568.815	541.8	587.4
569.22	547.6	588.6
569.626	556.8	592.2
570.053	537	578.2
570.459	557.4	597.2
570.865	558.6	592.6
571.292	556.4	587.4
571.698	548.6	581.6
572.104	543.8	576.4
572.531	550.8	582
572.937	562.2	581.6
573.343	557.2	580
573.75	548.2	577.4
574.177	544.8	575.8
574.583	558.8	585.4
574.99	551	578.4
575.396	563.4	589.4
575.824	550	580.4
576.231	558.4	582.2
576.637	558.2	576.2
577.065	570	595.2
577.472	552.2	571.6
577.879	546.4	580
578.286	558.4	587.8
578.714	546.4	569.4
579.121	550.4	571
579.528	561	577.4
579.935	563.6	588.2
580.364	546	572.6
580.771	540	564
581.178	541.2	573.4
581.585	557	577
582.014	562.4	584.4
582.421	556	567.6
582.829	550.6	570
583.236	559.2	574.6
583.644	550.2	571.4
584.073	540.2	575
584.481	547.8	568.4
584.889	555.6	569.6
585.296	559.4	581
585.726	556.2	565.2
586.134	545.6	563.8
586.542	552	566
586.95	566.8	584.6
587.358	549.8	557.6
587.787	551.2	574.4
588.196	544.8	560.2
588.604	558.4	563
589.012	560.8	565.4
589.421	549.6	554.4
589.851	550.2	561.4
590.259	559.8	570.8
590.668	548.2	561
591.076	584.2	598.2
591.485	548.2	561.4
591.894	552.6	570.2
592.324	562	581
592.733	561.4	580.8
593.142	545.4	556.4
593.551	552.6	563.4
593.96	586.6	596.8
594.369	546.6	552
594.8	546.4	552.2
595.209	558.4	556.6
595.618	535	546.6
596.028	548.6	552.8
596.437	548.2	558.2
596.847	555.2	564
597.256	562.2	564.4
597.687	563	564.8
598.097	549.8	565.4
598.507	546.4	553
598.917	562.4	556.8
599.327	564.8	562.6
599.736	557.4	565.2
600.146	563	572.2
600.556	553.6	560.6
600.988	576.8	570.8
601.398	551.2	555
601.808	557.4	576.2
602.219	549.2	550.8
602.629	549.8	560.4
603.039	556.8	557
603.45	584.2	586
603.86	554.8	559.2
604.271	567.2	571
604.703	561.4	556.6
605.114	560.8	563
605.525	562	564.2
605.935	553.8	563.6
606.346	577	577.6
606.757	556.8	572.6
607.168	558	552
607.579	551.6	552
607.99	566	579.6
608.402	559.8	567
608.813	568.4	568.4
609.224	551.4	558.2
609.636	549.4	559.2
610.047	556	559
610.48	553.4	564.4
610.892	561	570.6
611.303	570	567.6
611.715	548.6	561.2
612.127	546.8	552
612.539	553.8	559
612.95	555.2	575.2
613.362	547.8	557.8
613.774	548.6	552.2
614.186	555.6	554.4
614.599	560.6	553.2
615.011	564.6	569
615.423	559.4	560
615.835	552.6	560
616.248	544	550
616.66	553	569.4
617.073	547.2	562.8
617.485	548.4	565.4
617.898	557.8	565.6
618.311	552.8	559.6
618.723	555.8	565.6
619.136	583.6	587.4
619.549	576	571.2
619.962	577.4	581.6
620.375	550.2	562.8
620.788	564.2	561.6
621.201	551.8	559.2
621.614	563.4	567.8
622.028	555.6	561
622.441	561.6	565.4
622.854	568.4	579
623.268	544.4	562
623.681	554	562.6
624.095	554.6	559.4
624.509	566.8	571.2
624.922	565.6	568.2
625.336	545	556
625.728	555	550
626.142	568.6	570.8
626.556	572.4	576
626.97	563.2	566.2
627.384	551.6	558.2
627.799	557.8	563.6
628.213	566.8	571.8
628.627	556	560.2
629.041	553.4	550.2
629.456	556.4	558.2
629.87	558.8	553
630.285	558.2	574.4
630.699	568.2	569.8
631.093	557.2	557.2
631.507	562	566
631.922	564.4	560.8
632.337	570.4	571.6
632.752	556.4	544.4
633.167	554.6	559.8
633.582	552.2	558.6
633.997	553	546.6
634.412	558.4	546.4
634.806	553.2	556
635.221	549.8	548.4
635.637	557.4	561.6
636.052	547	542
636.468	562	554.2
636.883	565	569.8
637.299	549.8	545.6
637.715	553.4	538.2
638.109	553.2	545.4
638.525	554.8	535
638.941	569.6	566.2
639.357	557.4	549.6
639.773	562.8	557.8
640.189	551.8	540
640.584	561.4	548.4
641	560.4	552.4
641.416	550.2	543.4
641.832	552.4	546
642.249	553.6	554
642.665	560	550.8
643.06	556.2	550.8
643.477	566.6	556.4
643.894	540.4	539.8
644.31	551.8	547.2
644.727	549.4	558.2
645.123	558.8	553.6
645.54	541	546.4
645.957	552.2	558.6
646.374	556.4	570.8
646.77	554	553
647.187	573.8	580.6
647.604	560.4	555.2
648.021	538.8	543.6
648.439	549.4	543.8
648.835	558	556.2
649.252	550.4	555.8
649.67	555.6	544.2
650.088	555.2	551.2
650.484	548.8	556.8
650.902	558	565
651.32	558	564
651.738	548.2	547.6
652.134	561	548.8
652.552	564.8	569.6
652.971	565.4	557.6
653.389	547	543.6
653.786	570.4	567.6
654.204	574.2	571.4
654.622	542.8	550.4
655.019	553.2	547.4
655.438	551.6	556.8
655.857	546.6	554.4
656.275	551	552.2
656.673	538.8	541.8
657.091	557.4	555.2
657.51	536.6	545.8
657.908	552.4	551
658.327	562.8	568.8
658.746	533.2	543.6
659.144	547	554.4
659.563	559.2	569
659.982	549.4	553.6
660.38	538.8	546.8
660.8	548.4	547.2
661.219	558.6	557.4
661.617	556.6	553.6
662.037	546.6	551
662.457	555.4	559.8
662.855	528.6	537
663.275	578.2	582.6
663.695	551.2	552.4
664.094	540	552
664.514	547.6	553.8
664.934	540.6	544.6
665.333	549.2	546.6
665.753	537	541.8
666.152	531.6	545.6
666.572	541.4	537.8
666.993	556	558.4
667.392	537.2	537.2
667.812	544.6	548
668.212	543	544
668.632	551.2	560.8
669.053	536.8	546.8
669.453	550.6	558.4
669.874	547.4	550
670.273	546.4	554.8
670.694	535	548
671.116	556.4	568.6
671.515	549.2	567.6
671.937	545.8	536.8
672.337	544.2	541.6
672.758	547.4	549.8
673.158	554.4	550
673.58	539	546.8
673.98	547.6	552.4
674.402	560.6	555.6
674.824	552.8	540
675.224	536	544.6
675.646	538.6	539.8
676.047	543	539.2
676.469	545.8	551.8
676.869	554.6	553.4
677.292	550.4	549.8
677.693	544.2	544.2
678.115	550.4	539.6
678.516	561.8	553.6
678.939	558.6	554.4
679.34	544	542.8
679.762	566.6	555.6
680.164	546.4	551.6
680.586	547	538.2
680.988	552.4	552.2
681.411	570	570.2
681.812	541.8	540.2
682.236	548.4	538.6
682.637	541	541
683.061	537.8	537.4
683.462	553.6	546
683.864	540.6	539.2
684.288	557.2	552
684.69	543.4	537.4
685.114	551.2	557.2
685.516	554.8	550.6
685.94	545	534.2
686.342	554.4	551.8
686.766	545	534.4
687.168	546.4	534.6
687.571	556.8	559
687.995	550.4	545
688.398	536.2	534.6
688.822	543.6	539.2
689.225	563.2	557
689.628	564.8	561.8
690.052	547	542.2
690.456	548	547.4
690.88	546.8	551.2
691.284	531.2	537.8
691.687	551.4	554
692.112	542.8	536.8
692.515	534.2	538
692.919	542	544.8
693.344	544.8	545
693.747	545.8	544.2
694.173	540.2	535
694.577	555.8	549
694.98	550	548.2
695.406	548.2	537
695.81	544.6	547.8
696.214	542.8	548.8
696.64	550.2	539.8
697.044	543.4	537.8
697.448	553.2	556.4
697.874	539.8	539.6
698.279	546.6	533.4
698.684	537.4	521.2
699.11	539.4	537.6
699.514	535.6	537.8
699.919	534.8	539
700.324	527.8	529.6
700.75	555.8	535
701.156	543.2	540.6
701.561	546	561.2
701.987	551.6	551.8
702.393	551.4	546.6
702.798	551.2	549.6
703.203	544.4	541
703.63	538	540
704.036	541	546.8
704.442	551	548
704.847	541	535.6
705.274	541.6	538.6
705.68	552	547.4
706.086	549.6	548.8
706.492	535.4	532.6
706.92	541.4	546.2
707.326	551.6	553.2
707.732	545.6	537
708.139	531.6	539
708.545	542.6	536.2
708.973	539.8	548.4
709.38	539.4	543.6
709.786	531.6	529.4
710.193	551.2	550
710.6	542.4	541
711.028	540.4	535
711.435	537.6	540
711.842	539.8	544.6
712.249	536.2	536.6
712.656	531.2	536
713.064	545.6	555.4
713.492	533.4	539
713.9	545.8	540.6
714.307	546.2	547.8
714.715	540.2	543.6
715.123	549	546.2
715.53	542.8	539.8
715.938	553.2	546.6
716.367	543.4	546
716.775	539.4	536.8
717.184	530.2	533.2
717.592	540.6	544.4
718	549.6	555.4
718.408	563.8	573
718.816	572.2	572.8
719.225	543.6	544.8
719.633	536.6	541.4
720.042	531.2	537.8
720.472	532	535
720.881	562.4	565
721.29	547.6	542.6
721.699	533	535.6
722.108	546	543
722.517	542.8	546.6
722.926	533.8	541
723.335	546.4	546
723.744	535.4	535.4
724.154	540	540.2
724.563	540.6	544.4
724.973	548.6	550.8
725.382	548.8	541.8
725.792	540	541.6
726.202	531.6	539.6
726.612	561.2	554.2
727.022	538.6	542.8
727.432	534.4	536.6
779.813	535	536
780.223	578.6	585
780.634	535	533.6
781.044	537	531.8
781.454	536	536.4
781.865	557	544.8
782.276	533.8	535.6
782.686	546.8	539.2
783.097	541.6	528.2
783.508	541.4	529.4
783.919	543.2	528.8
784.33	539.8	538.4
784.741	560.4	545.2
785.152	535.6	528.2
785.563	530.4	520.8
785.974	536.8	522
786.386	547	533.6
786.776	541	526.4
787.188	531.6	533.8
787.599	531.6	525.8
788.011	552.8	541.6
788.423	545.2	538.8
788.835	539.8	529.4
789.247	531.6	524
789.659	541.6	531.6
790.071	526.8	535.2
790.483	582.8	575
790.874	529.2	531.4
791.286	540.8	554.2
791.699	535	530.6
792.111	541.6	545
792.524	535.8	548.2
792.937	539	531.8
793.349	526.2	531.2
793.741	540.8	535.4
794.154	541.4	531.4
794.567	551.6	556.2
794.98	540.8	541.4
795.393	527	528.4
795.785	553.4	551.2
796.198	529	547
796.612	540	543.4
797.026	536	538.6
797.439	520.2	514.2
797.831	532.2	528
798.245	527.8	531.6
798.659	541.4	534
799.073	530.6	531.2
799.487	532.8	533.2
799.88	536.8	530.4
800.294	536.8	534.6
800.708	538.2	545.8
801.123	532.2	540.8
801.516	568	553.2
801.93	527.2	528
802.345	528.8	526.4
802.76	537.4	531.2
803.153	550	553.6
803.568	549.8	551.8
803.983	543.6	538
804.377	533.4	540.2
804.792	534.6	521.6
805.207	520	526.6
805.601	535.2	530.4
806.016	564	574
806.432	535.4	537
806.826	566.4	562.6
807.242	546.6	552.6
807.658	547.8	536.8
808.052	532.2	536.4
808.468	528.6	533
808.884	530.4	533.8
809.279	535	539
809.695	544.6	547.4
810.111	552.2	560.6
810.506	536.6	544.8
810.922	558.6	551.8
811.339	532.8	532.8
811.734	538	545.4
812.151	534.6	537
812.546	531.4	535.6
812.963	529.4	533.2
813.38	539.2	543.2
813.776	535.8	541
814.193	553.4	555.8
814.589	533.2	540.2
815.006	532.4	532.8
815.402	531.6	524.8
815.82	531	535.2
816.237	536.6	536.4
816.633	535.4	544.6
817.051	521.2	531.4
817.448	538.8	542
817.866	528	537.6
818.262	548.6	558
818.68	530.8	522.2
819.077	533.8	527.8
819.495	529.6	536.4
819.892	574.2	582.4
820.311	527.6	532.2
820.708	536.6	539
821.127	533.4	538.4
821.524	549.6	544.6
821.943	549.2	540.2
822.34	554.2	556.8
822.759	538.4	541.6
823.157	541.6	537.4
823.576	552.2	548.8
823.974	536.8	550.2
824.393	621.8	614.8
824.791	533	538
825.189	537.4	533.2
825.609	536.8	534
826.007	542.2	540.8
826.427	527.6	526.6
826.826	539	535.8
827.246	542	538.4
827.644	518.6	525.4
828.043	551.4	539.6
828.463	537.6	539
828.862	539.4	543.4
829.261	540.4	533.8
829.682	522	524
830.081	545.2	538.8
830.502	533	533.8
830.901	538.8	542.4
831.301	553.4	553
831.722	525.6	536.4
832.121	536.2	534.6
832.521	531.4	528.4
832.943	535.8	534
833.342	541.4	540.2
833.742	537.4	528
834.164	528.6	527.2
834.564	521.8	517.4
834.965	539	534.4
835.386	533.2	527.6
835.787	537.4	535.8
836.188	536.2	530.4
836.588	542.2	536
837.01	532	528.2
837.411	530	533.4
837.812	536.8	540.8
838.213	547.4	527.6
838.636	536	539.6
839.037	601	598.2
839.438	543	531.8
839.84	544.6	541.2
840.263	542.2	542.8
840.664	537.4	530.6
841.066	534.4	532.2
841.468	536.2	541.8
841.891	534.4	532.2
842.293	544	532.8
842.695	537.4	538.8
843.098	540.6	551.2
843.5	533.8	542
843.902	537.6	538.8
844.326	538.4	536
844.729	537	534.6
845.131	540.2	541.4
845.534	537	535.2
845.937	541.4	544.2
846.34	561	547.6
846.764	521.2	529.4
847.167	538	535.2
847.571	525.6	524.2
847.974	536.2	525.8
848.377	531.2	533.4
848.781	574.2	577
849.184	549.8	541.8
849.588	533.8	538.4
849.992	528.2	525.2
850.396	534.4	537.4
850.821	555.4	556.2
851.225	535.6	540.2
851.63	535	526.2
852.034	550.2	547.6
852.438	542.6	529.2
852.843	556.6	564.2
853.247	529.4	529.8
853.652	535	532.8
854.057	550	553.2
854.462	545.6	539.4
854.867	534.2	535.2
855.272	570	563.6
855.677	539.6	538.8
856.082	532.2	533.6
856.487	531	532.4
856.893	537.6	539.6
857.298	528.6	538
857.704	531.8	529.4
858.11	540.2	534.8
858.516	548.6	536.2
858.922	534.6	539.4
859.328	539.8	549.6
859.734	523.4	531.4
860.14	536.8	543.4
860.525	539.4	539.4
860.931	532.4	523.8
861.338	539.2	528.4
861.745	528.6	542.6
862.151	537	535.8
862.558	538.6	534.4
862.965	531.8	536.8
863.372	531.8	527.2
863.779	521.2	530.8
864.186	544.4	554.2
864.572	527.6	539
864.98	541.6	554.6
865.387	559.6	564.8
865.795	522	524.8
866.203	538.2	546.4
866.61	526	524.8
867.018	542.6	539.6
867.405	538.2	535.4
867.813	532.2	541.4
868.221	531.6	533.8
868.63	525.6	539.6
869.038	538	542.8
869.425	567.2	567.8
869.834	538.4	535
870.243	523.2	523.2
870.652	526	525.8
871.039	527.6	526
871.448	532.6	538
871.857	538.6	539.6
872.266	536.4	538.2
872.654	534.6	531
873.064	525.2	530.2
873.473	548	546
873.883	533.2	525.6
874.271	530.6	525.2
874.681	543.8	541.2
875.091	528.4	523.4
875.48	537.4	539.6
875.89	549	540
876.3	533.4	530.4
876.689	524	522.8
877.1	537.8	530.6
877.51	537.6	530.2
877.9	556.4	548.6
878.31	532.2	525.4
878.721	559.2	554.6
879.111	535	527.8
879.522	530.8	531.4
879.933	520.6	522.2
880.323	521.2	519.2
880.734	530.8	519
881.125	538.8	526
881.536	535.4	531.8
881.948	532.6	518
882.338	526.2	515
882.75	542.4	532
883.141	529.2	526.6
883.553	532.6	534.8
883.944	552	557.4
884.356	533.8	537.4
884.769	529.2	527.2
885.16	537.4	531
885.573	534.6	532
885.964	535	533
886.377	538.6	534
886.768	527.8	514.8
887.181	533.2	525.6
887.573	535.6	522.8
887.987	544	536.8
888.378	545	546.4
888.792	541.6	539
889.184	571.2	579.2
889.598	518.8	532.8
889.99	535.4	533
890.383	530.8	534
890.797	530.6	519.8
891.19	535.6	549.8
891.604	535.4	532.6
891.997	531.2	520.8
892.411	518.6	525
892.805	533.4	526.2
893.198	530	531.2
893.613	517.4	520.8
894.006	534	535.8
894.421	529	528.6
894.815	531	527.6
895.209	531	525.2
895.624	577.2	573
896.018	539	554.4
896.412	527.2	533.2
896.828	528.6	531.6
897.222	538.8	540
897.617	527.6	522.6
898.033	548	545.8
898.427	527.2	538.4
898.822	525.4	530.6
899.239	522.2	524.6
899.634	518.6	522.6
900.029	542.8	543.8
900.424	524.8	524.4
900.841	525.8	527.4
901.236	538.8	540.8
901.632	535.6	551.6
902.027	592.2	583
902.445	531.8	540.4
902.841	525.2	529.4
903.237	529.8	529.8
903.633	540.2	542.6
904.05	536	540.2
904.447	532	538.4
904.843	532.4	543.2
905.24	531	526.2
905.636	519.4	523.2
906.033	529	529.2
906.451	541.2	538.8
906.848	523.6	524
907.246	529.8	526.8
907.643	528	537.2
908.04	532.8	538
908.438	543.8	542.6
908.835	537.4	538.8
909.254	536	537.4
909.652	527.6	535
910.05	527.2	528.4
910.448	530.8	521.8
910.846	527	541.6
911.244	517.8	529.4
911.643	531	534.4
912.041	530.6	529.4
912.44	542.2	550.6
912.839	523.2	531.8
913.237	522	522
913.636	522.8	528.6
914.035	526.4	534.6
914.434	531.2	535.2
914.834	543.6	547.6
915.233	542.8	541.6
915.633	528	529.4
916.032	526.2	522.4
916.432	522.8	531.2
916.832	540	546.4
917.232	521.4	529.6
917.632	519	528.2
918.032	536.2	538.4
918.432	530.4	536.4
918.833	526.4	531.4
919.233	532.4	530.2
919.634	521.6	521
920.035	537.6	533.2
920.436	524.6	521.8
920.837	543.8	540.4
921.238	529	527.6
921.639	530.2	530.8
922.019	537.4	532
922.42	533.2	543.2
922.822	531.2	539.4
923.224	531	539
923.625	526.6	529.4
924.027	537.2	531.4
924.429	544.8	547.2
924.81	535.2	528.8
925.212	537	537.4
925.615	531.2	538.2
926.017	535.6	531.4
926.42	543	545.2
926.801	526.2	532
927.204	533	535
927.607	532.8	541.8
928.01	541.6	539.4
928.413	532.6	540.2
928.795	522.6	513.2
929.199	529.6	526.8
929.602	536.4	521.8
930.006	524.8	523.6
930.388	516	509.2
930.792	536.4	532.6
931.196	534.6	527.2
931.579	559.2	564.8
931.983	530.2	522.4
932.388	572.4	573.4
932.771	527	527.8
933.176	525.8	525.8
933.58	536.8	525
933.964	547.8	535.6
934.369	529.4	518.2
934.774	538.2	531.6
935.158	527.8	535.2
935.563	533.6	531.2
935.947	533.4	537
936.353	531	532.8
936.759	525.2	529.4
937.143	537.6	534.2
937.549	532.6	528.2
937.934	545	535.8
938.34	551.2	547
938.746	527	514
939.131	522.8	528.4
939.538	527.4	523.2
939.923	531	529.2
940.33	522.6	525.4
940.716	533.4	529.4
941.123	535.4	532.6
941.508	538.2	537.4
941.916	543.4	538.4
942.302	534.8	536.8
942.709	522.2	514.4
943.096	531.4	522
943.503	539.2	536.4
943.89	529.4	532.8
944.298	528	527.8
944.685	554	560.2
945.072	527.4	535
945.48	539.6	539.6
945.867	524	525.4
946.276	521.4	525
946.663	554.4	545.6
947.051	546.8	545.6
947.46	545	549.8
947.848	538.6	535.8
948.257	528.8	530.6
948.645	534.2	527
949.033	533.4	533.6
949.443	522.2	526.2
949.831	557.8	573.4
950.22	518.2	523
950.63	530.4	535.2
951.018	562.8	548.6
951.407	531.8	529.4
951.796	529	533
952.207	536	535.6
952.596	531.8	539.8
952.985	514	527.8
953.375	574.2	566.4
953.786	530.6	523.2
954.176	525.4	521.4
954.566	534.2	538
954.956	518.2	520.4
955.367	523.6	529.2
955.758	543.6	550
956.148	527.8	528.6
956.539	539.8	539.6
956.929	517.8	518.8
957.341	523	519.8
957.732	526.6	528.6
958.123	543.4	538.8
958.515	513	524.2
958.906	533.6	531.8
959.297	524.8	527
959.689	530.2	526.8
960.102	520.4	519.8
960.494	530.8	527.8
960.886	529.6	523.2
961.278	526.8	523.2
961.67	558	547.2
962.062	564.6	568.8
962.455	524.8	522.8
962.847	519.6	524.4
963.24	522.2	527
963.633	524.8	536.6
964.026	518.2	522.2
964.419	530.8	535.8
964.812	534	535.4
965.206	525.6	531.6
965.599	536.4	530.6
965.993	523.4	525.8
966.386	519	528
966.78	543.8	541.6
967.174	544.2	534.6
967.569	535.4	530.4
967.963	526.6	522.4
968.357	527.4	514.6
968.752	528.6	523.8
969.146	530.8	522.8
969.541	512.2	516.6
969.936	524.8	527.6
970.331	535.4	520.8
970.705	529.4	524.2
971.1	528.4	520
971.496	537	524.2
971.892	520.4	516.8
972.287	528.8	524
972.683	525	523.4
973.079	524.4	521.8
973.454	538.6	541
973.85	534.4	516.6
974.247	540.8	524
974.643	544.6	554.2
975.04	537.2	522
975.415	528.6	528.6
975.812	520.2	511.2
976.209	533.6	523
976.607	524.4	523.8
976.982	531.4	534.6
977.38	546.2	543.4
977.778	527.6	529
978.175	531.6	514.8
978.552	526.6	520.4
978.95	540	529
979.348	539.6	533
979.725	576	570.2
980.123	524.8	533.6
980.522	527.4	526
980.899	529	528.2
981.298	530.4	521.2
981.697	536.4	521.4
982.075	523.8	523.4
982.474	522.6	524.4
982.852	529.8	535.2
983.251	537.4	530.6
983.651	527.6	521.6
984.029	529.8	534.8
984.429	530.8	526.8
984.808	518.8	510.4
985.208	525.8	530.4
985.609	526.2	524.6
985.987	522	515.8
986.388	524.2	520.8
986.768	532.6	533.6
987.168	512.8	522.8
987.548	535.6	529.2
987.949	533.6	547.8
988.329	528.6	531
988.731	514.8	515.6
989.111	524.8	525.8
989.491	516.6	528.4
989.893	533	533.4
990.273	535.4	544.6
990.676	515.8	527.4
991.057	512	520.4
991.459	518.2	524.6
991.84	522.8	530.2
992.221	513.2	520.4
992.624	542.4	535.4
993.006	527.2	532.4
993.388	526.4	534.2
993.791	534.8	534.4
994.173	532.8	538.2
994.576	551	557.4
994.959	518.2	522.2
995.341	526.4	527.4
995.724	527	541
996.128	524	528.2
996.511	527.2	535.2
996.894	523.2	530.8
997.298	525.4	524
997.681	530.6	533
998.065	521.6	526.8
998.448	519.6	523.4
998.854	532.6	536
999.237	518.6	525.6
999.621	536.2	544.2
1000.01	542.2	537.4
1000.39	526.2	531.6
1000.8	528	516
1001.18	526.4	534.4
1001.56	532.2	539.2
1001.95	535	536.2
1002.33	527.2	537
1002.72	518	531.6
1003.13	523.6	524.6
1003.51	526.6	534.8
1003.9	518.6	520.6
1004.28	540.4	543
1004.67	517.4	526
1005.06	530.2	524.8
1005.44	553.6	555.6
1005.83	522.2	509.2
1006.21	523	525
1006.6	521.4	527.4
1006.99	535.6	537.6
1007.37	529.8	540.4
1007.76	534	527.4
1060.12	528.2	518.4
1060.51	522.8	520.6
1060.89	528	535
1061.28	530.8	533.6
1061.67	534.8	536.2
1062.06	532.2	521.2
1062.45	528	525.8
1062.83	538.6	527.2
1063.22	542	542.2
1063.61	554.4	574.4
1064	540.4	532.6
1064.39	518.8	523.8
1064.78	527.6	524.2
1065.14	540	532.8
1065.53	527.6	520.6
1065.92	528.4	527
1066.31	523.4	519.2
1066.7	536	523.8
1067.09	544	531.6
1067.46	539.8	534.4
1067.85	536.8	529
1068.24	525.8	528.4
1068.63	539.6	535.4
1069.02	516.2	526.2
1069.39	528.4	526.6
1069.78	530.4	525.8
1070.17	527.2	525
1070.57	515.2	519.8
1070.93	530	527.2
1071.33	524.8	527.2
1071.72	531.6	526.2
1072.11	529.6	518.2
1072.48	529	514.8
1072.87	526.4	530
1073.26	528.4	535.2
1073.64	526.8	517.4
1074.03	512.6	520.4
1074.4	521	519.6
1074.79	535.4	533.4
1075.19	523.2	530.2
1075.56	529.8	536.6
1075.95	526.6	526.2
1076.34	524.8	528
1076.72	528.6	528.8
1077.11	529.8	526.2
1077.48	537.2	534.8
1077.88	525.2	518.6
1078.25	526.6	527.2
1078.64	534.4	528.6
1079.02	538.2	532.6
1079.41	531.6	540.8
1079.78	536.4	522.8
1080.18	522.8	517.2
1080.55	578.6	573.8
1080.95	522.6	518.8
1081.32	523.4	513.4
1081.72	534.6	523.2
1082.09	528.6	530
1082.49	527	514.4
1082.86	523	525.6
1083.24	516.4	520.2
1083.63	520.6	517.8
1084.01	528.6	522.4
1084.38	534	524.8
1084.78	520.2	523.4
1085.16	523.2	529.4
1085.55	536.8	533.2
1085.93	543.4	543.8
1086.31	526.8	514.4
1086.7	557	552.8
1087.08	526	528.6
1087.46	525.2	520.6
1087.83	517.4	524.2
1088.23	530.8	539
1088.61	526.8	526.8
1088.99	528.4	526.8
1089.36	516.4	523.6
1089.76	520.6	529
1090.14	522	523.8
1090.52	518.8	525.8
1090.9	514.2	524.8
1091.27	535.8	544
1091.67	550.4	555.6
1092.05	532.2	522.4
1092.43	521	526
1092.81	531.6	533
1093.19	541.4	521
1093.57	527.2	523.2
1093.95	523.8	526.8
1094.35	536.6	534.6
1094.73	538.8	538.6
1095.11	520.2	525.4
1095.49	529.8	526.2
1095.87	525.4	527.6
1096.25	529.4	538.2
1096.63	524.4	536.6
1097.01	517.4	527.8
1097.39	537.2	528.8
1097.77	523.6	523.8
1098.15	524.6	527.6
1098.53	514.4	517
1098.91	518.8	526.6
1099.29	531.6	523
1099.68	541.4	531.8
1100.06	534.4	528.4
1100.44	518.8	529.8
1100.82	525.4	525.8
1101.18	525.4	532.6
1101.56	525	529.4
1101.95	518.4	521
1102.33	524.8	530.2
1102.71	524.8	533
1103.1	510	521
1103.48	511.8	510.4
1103.86	510.2	520.6
1104.22	529.6	525.6
1104.61	527.6	522.4
1104.99	520.8	526.6
1105.38	517	513.8
1105.76	521.6	533.8
1106.12	526	528.6
1106.51	555.8	557.2
1106.89	525.2	529.2
1107.26	524.6	527.8
1107.64	532.8	527.6
1108.03	521.6	513.4
1108.41	529.4	523.8
1108.78	522	529.2
1109.16	522.8	520.6
1109.55	536	535.4
1109.91	515	516.6
1110.3	510.4	512.6
1110.69	539.8	534.6
1111.05	524.8	517.2
1111.44	527.6	526
1111.8	524.2	527
1112.19	523.6	530.4
1112.58	527	529.4
1112.94	528.8	524.4
1113.33	527	516.6
1113.7	521.6	514
1114.09	519.2	508.2
1114.45	519.2	512.4
1114.84	521	518.8
1115.21	536	516.2
1115.6	524.2	514.2
1115.96	533.4	526.2
1116.35	534.2	525.6
1116.72	517	514.8
1117.11	534.2	532.4
1117.48	521.2	518.4
1117.85	518.2	515.6
1118.24	537	545.8
1118.6	524.8	518.2
1118.99	522.6	524
1119.36	530.2	524
1119.73	528	526.2
1120.12	527.6	530.4
1120.49	515.2	520
1120.86	538.6	522.8
1121.25	521.4	526.4
1121.62	515.2	509.2
1121.99	521.6	524.2
1122.38	533	539
1122.76	525.6	522.4
1123.13	527	523.4
1123.5	532.6	527.4
1123.89	534.4	539.2
1124.26	513	507.2
1124.63	516	520.6
1125	527.2	524.4
1125.4	517.4	515.2
1125.77	513.2	514.4
1126.14	508.4	508.2
1126.51	523.6	524.4
1126.88	528	526.6
1127.26	525.4	518.4
1127.63	512.2	512
1128.02	526.4	519.2
1128.4	518	523.4
1128.77	523.2	516.6
1129.14	527.2	522.2
1129.52	521.6	522
1129.89	529.2	525.8
1130.26	518.4	527
1130.64	521.4	520.8
1131.01	522.8	524
